<?xml version="1.0" encoding="UTF-8"?>

<Bundle xmlns="http://hl7.org/fhir">
  <id value="ExampleTDDUIBundle"/>
  <meta>
    <profile value="https://interop.esante.gouv.fr/ig/fhir/tddui/StructureDefinition/tddui-bundle"/>
  </meta>
  <type value="transaction"/>
  <entry>
    <fullUrl value="https://test-server.fr/Patient/tddui-patient-ins-example"/>
    <resource>
      <Patient>
        <id value="tddui-patient-ins-example"/>
        <meta>
          <profile value="https://interop.esante.gouv.fr/ig/fhir/tddui/StructureDefinition/tddui-patient-ins"/>
        </meta>
        <text>
          <status value="generated"/><div xmlns="http://www.w3.org/1999/xhtml"><a name="Patient_tddui-patient-ins-example"> </a><p class="res-header-id"><b>Narratif généré : Patient tddui-patient-ins-example</b></p><a name="tddui-patient-ins-example"> </a><a name="hctddui-patient-ins-example"> </a><div style="display: inline-block; background-color: #d9e0e7; padding: 6px; margin: 4px; border: 1px solid #8da1b4; border-radius: 5px; line-height: 60%"><p style="margin-bottom: 0px"/><p style="margin-bottom: 0px">Profil: <a href="StructureDefinition-tddui-patient-ins.html">TDDUI Patient INS</a></p></div><p style="border: 1px #661aff solid; background-color: #e6e6ff; padding: 10px;">DUPONT  Male, Date de Naissance :1947-04-03 ( NIR définitif (use: official, ))</p><hr/><table class="grid"><tr><td style="background-color: #f3f5da" title="Noms alternatifs (voir plus bas)">Nom alternatif :</td><td colspan="3">Jean DUPONT (Official)</td></tr><tr><td style="background-color: #f3f5da" title="Moyens de contacter le Patient">Contact Detail</td><td colspan="3">12 rue des Lilas, 76748 Vittefleur, France(home)</td></tr><tr><td style="background-color: #f3f5da" title="The registered place of birth of the patient. A sytem may use the address.text if they don't store the birthPlace address in discrete elements."><a href="http://hl7.org/fhir/extensions/5.2.0/StructureDefinition-patient-birthPlace.html">Patient Birth Place</a></td><td colspan="3">Mazoires FRA </td></tr><tr><td style="background-color: #f3f5da" title="Reliabilility of the patient's identity | Précision sur le degré de fiabilité de l'identité du patient (si provisoire, validé... avec la justification : quelle type de pièce d'identité ?) avec la méthode de collection">FR Core Patient Ident Reliability Extension:</td><td colspan="3"><ul><li>identityStatus: <a href="https://hl7.fr/ig/fhir/core/2.1.0/CodeSystem-fr-core-cs-v2-0445.html#fr-core-cs-v2-0445-VALI">FR Core CodeSystem v2-0445 VALI</a>: Identité validée</li></ul></td></tr></table></div>
        </text>
        <extension url="https://hl7.fr/ig/fhir/core/StructureDefinition/fr-core-identity-reliability">
          <extension url="identityStatus">
            <valueCoding>
              <system value="https://hl7.fr/ig/fhir/core/CodeSystem/fr-core-cs-v2-0445"/>
              <code value="VALI"/>
            </valueCoding>
          </extension>
        </extension>
        <extension url="http://hl7.org/fhir/StructureDefinition/patient-birthPlace">
          <valueAddress>
            <extension url="https://hl7.fr/ig/fhir/core/StructureDefinition/fr-core-address-insee-code">
              <valueCoding>
                <system value="https://mos.esante.gouv.fr/NOS/TRE_R13-CommuneOM/FHIR/TRE-R13-CommuneOM"/>
                <code value="63220"/>
              </valueCoding>
            </extension>
            <city value="Mazoires"/>
            <country value="FRA"/>
          </valueAddress>
        </extension>
        <identifier>
          <use value="official"/>
          <type>
            <coding>
              <system value="https://hl7.fr/ig/fhir/core/CodeSystem/fr-core-cs-v2-0203"/>
              <code value="INS-NIR"/>
            </coding>
          </type>
          <system value="urn:oid:1.2.250.1.213.1.4.8"/>
          <value value="147720425367411"/>
        </identifier>
        <name>
          <extension url="https://hl7.fr/ig/fhir/core/StructureDefinition/fr-core-patient-birth-list-given-name">
            <valueString value="Jean Stéphane Patrick"/>
          </extension>
          <use value="official"/>
          <family value="DUPONT"/>
          <given value="Jean"/>
        </name>
        <name>
          <use value="usual"/>
          <family value="DUPONT"/>
        </name>
        <gender value="male"/>
        <birthDate value="1947-04-03"/>
        <address>
          <use value="home"/>
          <text value="12 rue des Lilas, 76748 Vittefleur, France"/>
          <line value="12 rue des Lilas"/>
          <city value="Vittefleur"/>
          <postalCode value="76748"/>
        </address>
      </Patient>
    </resource>
    <request>
      <method value="POST"/>
      <url value="TDDUIPatientINS"/>
    </request>
  </entry>
  <entry>
    <fullUrl value="https://test-server.fr/Organization/tddui-organization-example"/>
    <resource>
      <Organization>
        <id value="tddui-organization-example"/>
        <meta>
          <profile value="https://interop.esante.gouv.fr/ig/fhir/tddui/StructureDefinition/tddui-organization"/>
        </meta>
        <text>
          <status value="generated"/><div xmlns="http://www.w3.org/1999/xhtml"><a name="Organization_tddui-organization-example"> </a><p class="res-header-id"><b>Narratif généré : Organisation tddui-organization-example</b></p><a name="tddui-organization-example"> </a><a name="hctddui-organization-example"> </a><div style="display: inline-block; background-color: #d9e0e7; padding: 6px; margin: 4px; border: 1px solid #8da1b4; border-radius: 5px; line-height: 60%"><p style="margin-bottom: 0px"/><p style="margin-bottom: 0px">Profil: <a href="StructureDefinition-tddui-organization.html">TDDUI Organization</a></p></div><p><b>identifier</b>: Identification nationale de structure définie par l’ANS dans le CI_SIS/1480787529</p><p><b>name</b>: Les Chênes Verts</p></div>
        </text>
        <identifier>
          <type>
            <coding>
              <system value="https://hl7.fr/ig/fhir/core/CodeSystem/fr-core-cs-v2-0203"/>
              <code value="IDNST"/>
            </coding>
          </type>
          <system value="urn:oid:1.2.250.1.71.4.2.2"/>
          <value value="1480787529"/>
        </identifier>
        <name value="Les Chênes Verts"/>
      </Organization>
    </resource>
    <request>
      <method value="POST"/>
      <url value="TDDUIOrganization"/>
    </request>
  </entry>
  <entry>
    <fullUrl value="https://test-server.fr/Encounter/tddui-encounter-sejour-example"/>
    <resource>
      <Encounter>
        <id value="tddui-encounter-sejour-example"/>
        <meta>
          <profile value="https://interop.esante.gouv.fr/ig/fhir/tddui/StructureDefinition/tddui-encounter-sejour"/>
        </meta>
        <text>
          <status value="extensions"/><div xmlns="http://www.w3.org/1999/xhtml"><a name="Encounter_tddui-encounter-sejour-example"> </a><p class="res-header-id"><b>Narratif généré : Venue tddui-encounter-sejour-example</b></p><a name="tddui-encounter-sejour-example"> </a><a name="hctddui-encounter-sejour-example"> </a><div style="display: inline-block; background-color: #d9e0e7; padding: 6px; margin: 4px; border: 1px solid #8da1b4; border-radius: 5px; line-height: 60%"><p style="margin-bottom: 0px"/><p style="margin-bottom: 0px">Profil: <a href="StructureDefinition-tddui-encounter-sejour.html">TDDUI Encounter Sejour</a></p></div><p><b>Date d’admission</b>: 2023-04-11</p><p><b>Libellé mode d'entrée</b>: Date de début du suivi post-opératoire : 14/04/2023</p><p><b>Libellé mode de sortie</b>: Sortie prévisionnelle prévue pour le 5 mai 2023</p><p><b>Extension Definition for Encounter.plannedEndDate for Version 5.0</b>: 2023-05-05</p><p><b>identifier</b>: Identifiant du séjour/3480787529/147720425367411-SEJOUR-1012</p><p><b>status</b>: In Progress</p><p><b>class</b>: <a href="http://terminology.hl7.org/6.5.0/CodeSystem-v3-ActCode.html#v3-ActCode-HH">ActCode HH</a>: home health</p><p><b>subject</b>: <a href="Patient-tddui-patient-ins-example.html">DUPONT  Male, Date de Naissance :1947-04-03 ( NIR définitif (use: official, ))</a></p><p><b>period</b>: 2023-04-14 --&gt; (ongoing)</p><p><b>serviceProvider</b>: <a href="Organization-tddui-organization-example.html">Organization Les Chênes Verts</a></p></div>
        </text>
        <extension url="https://interop.esante.gouv.fr/ig/fhir/tddui/StructureDefinition/tddui-admission-date">
          <valueDateTime value="2023-04-11"/>
        </extension>
        <extension url="https://interop.esante.gouv.fr/ig/fhir/tddui/StructureDefinition/tddui-entry-mode-label">
          <valueString value="Date de début du suivi post-opératoire : 14/04/2023"/>
        </extension>
        <extension url="https://interop.esante.gouv.fr/ig/fhir/tddui/StructureDefinition/tddui-exit-mode-label">
          <valueString value="Sortie prévisionnelle prévue pour le 5 mai 2023"/>
        </extension>
        <extension url="http://hl7.org/fhir/5.0/StructureDefinition/extension-Encounter.plannedEndDate">
          <valueDateTime value="2023-05-05"/>
        </extension>
        <identifier>
          <type>
            <coding>
              <system value="https://interop.esante.gouv.fr/ig/fhir/tddui/CodeSystem/tddui-encounter-identifier"/>
              <code value="SEJ"/>
              <display value="Identifiant du séjour"/>
            </coding>
          </type>
          <system value="urn:oid:1.2.250.2345.3245.13"/>
          <value value="3480787529/147720425367411-SEJOUR-1012"/>
        </identifier>
        <status value="in-progress"/>
        <class>
          <system value="http://terminology.hl7.org/CodeSystem/v3-ActCode"/>
          <code value="HH"/>
        </class>
        <subject>
          <reference value="Patient/tddui-patient-ins-example"/>
        </subject>
        <period>
          <start value="2023-04-14"/>
        </period>
        <serviceProvider>
          <reference value="Organization/tddui-organization-example"/>
        </serviceProvider>
      </Encounter>
    </resource>
    <request>
      <method value="POST"/>
      <url value="TDDUIEncounterSejour"/>
    </request>
  </entry>
  <entry>
    <fullUrl value="https://test-server.fr/Encounter/tddui-encounter-evenement-example"/>
    <resource>
      <Encounter>
        <id value="tddui-encounter-evenement-example"/>
        <meta>
          <profile value="https://interop.esante.gouv.fr/ig/fhir/tddui/StructureDefinition/tddui-encounter-evenement"/>
        </meta>
        <text>
          <status value="extensions"/><div xmlns="http://www.w3.org/1999/xhtml"><a name="Encounter_tddui-encounter-evenement-example"> </a><p class="res-header-id"><b>Narratif généré : Venue tddui-encounter-evenement-example</b></p><a name="tddui-encounter-evenement-example"> </a><a name="hctddui-encounter-evenement-example"> </a><div style="display: inline-block; background-color: #d9e0e7; padding: 6px; margin: 4px; border: 1px solid #8da1b4; border-radius: 5px; line-height: 60%"><p style="margin-bottom: 0px"/><p style="margin-bottom: 0px">Profil: <a href="StructureDefinition-tddui-encounter-evenement.html">TDDUI Encounter Evenement</a></p></div><blockquote><p><b>Ressources utilisées</b></p><ul><li>TDDUIRessourceType: <span title="Codes:{http://snomed.info/sct 261324000}">Vehicle</span></li></ul></blockquote><p><b>Rapport de l’évènement</b>: Observations cliniques : ; Recommandations pour les jours à venir : ; Prochaine visite : 15 avril 2023, 10h30 ; Remarque : Monsieur Dupont a compris les consignes pour la gestion de sa douleur et la mobilisation de sa hanche opérée.</p><p><b>Commentaire</b>: Cet évènement a débuté plus tard l’usager était sous la douche à l’heure du début du rendez-vous.</p><p><b>Libellé de l'évènement</b>: Visite à domicile pour soins infirmier.</p><p><b>Motif de l’évènement</b>: Suivi post-opératoire suite à intervention chirurgicale de la hanche.</p><p><b>identifier</b>: Visit Number/3480787529/147720425367411-EVN-12548</p><p><b>status</b>: Finished</p><p><b>class</b>: <a href="http://terminology.hl7.org/6.5.0/CodeSystem-v3-ActCode.html#v3-ActCode-HH">ActCode HH</a>: home health</p><p><b>type</b>: <span title="Codes:{https://smt.esante.gouv.fr/fhir/CodeSystem/terminologie-cisis MED-1298}">Intervention d'un infirmer salarié</span>, <span title="Codes:">Intervention</span></p><p><b>subject</b>: <a href="Patient-tddui-patient-ins-example.html">DUPONT  Male, Date de Naissance :1947-04-03 ( NIR définitif (use: official, ))</a></p><h3>Participants</h3><table class="grid"><tr><td style="display: none">-</td><td><b>Individual</b></td></tr><tr><td style="display: none">*</td><td><a href="Practitioner-tddui-practitioner-example.html">Practitioner Claire Martin </a></td></tr></table><p><b>period</b>: 2023-04-14 10:30:00+0200 --&gt; 2023-04-14 11:15:00+0200</p><h3>Locations</h3><table class="grid"><tr><td style="display: none">-</td><td><b>Location</b></td></tr><tr><td style="display: none">*</td><td><a href="Location-tddui-event-location-example.html">Location</a></td></tr></table><p><b>serviceProvider</b>: <a href="Organization-tddui-organization-example.html">Organization Les Chênes Verts</a></p><p><b>partOf</b>: <a href="Encounter-tddui-encounter-sejour-example.html">Encounter : extension = 2023-04-11,Date de début du suivi post-opératoire : 14/04/2023,Sortie prévisionnelle prévue pour le 5 mai 2023,2023-05-05; identifier = Identifiant du séjour: 3480787529/147720425367411-SEJOUR-1012; status = in-progress; class = home health (ActCode#HH); period = 2023-04-14 --&gt; (ongoing)</a></p></div>
        </text>
        <extension url="https://interop.esante.gouv.fr/ig/fhir/tddui/StructureDefinition/tddui-ressources-used">
          <extension url="TDDUIRessourceType">
            <valueCodeableConcept>
              <coding>
                <system value="http://snomed.info/sct"/>
                <code value="261324000"/>
                <display value="Vehicle"/>
              </coding>
            </valueCodeableConcept>
          </extension>
        </extension>
        <extension url="https://interop.esante.gouv.fr/ig/fhir/tddui/StructureDefinition/tddui-event-report">
          <valueString value="Observations cliniques : ; Recommandations pour les jours à venir : ; Prochaine visite : 15 avril 2023, 10h30 ; Remarque : Monsieur Dupont a compris les consignes pour la gestion de sa douleur et la mobilisation de sa hanche opérée."/>
        </extension>
        <extension url="https://interop.esante.gouv.fr/ig/fhir/tddui/StructureDefinition/tddui-comment">
          <valueString value="Cet évènement a débuté plus tard l’usager était sous la douche à l’heure du début du rendez-vous."/>
        </extension>
        <extension url="https://interop.esante.gouv.fr/ig/fhir/tddui/StructureDefinition/tddui-event-label">
          <valueString value="Visite à domicile pour soins infirmier."/>
        </extension>
        <extension url="https://interop.esante.gouv.fr/ig/fhir/tddui/StructureDefinition/tddui-event-reason">
          <valueString value="Suivi post-opératoire suite à intervention chirurgicale de la hanche."/>
        </extension>
        <identifier>
          <type>
            <coding>
              <system value="https://hl7.fr/ig/fhir/core/CodeSystem/fr-core-cs-identifier-type"/>
              <code value="VN"/>
            </coding>
          </type>
          <system value="https://hl7.fr/ig/fhir/core/CodeSystem/fr-core-cs-identifier-type"/>
          <value value="3480787529/147720425367411-EVN-12548"/>
        </identifier>
        <status value="finished"/>
        <class>
          <system value="http://terminology.hl7.org/CodeSystem/v3-ActCode"/>
          <code value="HH"/>
        </class>
        <type>
          <coding>
            <system value="https://smt.esante.gouv.fr/fhir/CodeSystem/terminologie-cisis"/>
            <code value="MED-1298"/>
            <display value="Intervention d'un infirmer salarié"/>
          </coding>
        </type>
        <type>
          <text value="Intervention"/>
        </type>
        <subject>
          <reference value="Patient/tddui-patient-ins-example"/>
        </subject>
        <participant>
          <individual>
            <reference value="Practitioner/tddui-practitioner-example"/>
          </individual>
        </participant>
        <period>
          <start value="2023-04-14T10:30:00+02:00"/>
          <end value="2023-04-14T11:15:00+02:00"/>
        </period>
        <location>
          <location>
            <reference value="Location/tddui-event-location-example"/>
          </location>
        </location>
        <serviceProvider>
          <reference value="Organization/tddui-organization-example"/>
        </serviceProvider>
        <partOf>
          <reference value="Encounter/tddui-encounter-sejour-example"/>
        </partOf>
      </Encounter>
    </resource>
    <request>
      <method value="POST"/>
      <url value="TDDUIEncounterEvenement"/>
    </request>
  </entry>
  <entry>
    <fullUrl value="https://test-server.fr/Practitioner/tddui-practitioner-example"/>
    <resource>
      <Practitioner>
        <id value="tddui-practitioner-example"/>
        <meta>
          <profile value="https://interop.esante.gouv.fr/ig/fhir/tddui/StructureDefinition/tddui-practitioner"/>
        </meta>
        <text>
          <status value="generated"/><div xmlns="http://www.w3.org/1999/xhtml"><a name="Practitioner_tddui-practitioner-example"> </a><p class="res-header-id"><b>Narratif généré : Praticien tddui-practitioner-example</b></p><a name="tddui-practitioner-example"> </a><a name="hctddui-practitioner-example"> </a><div style="display: inline-block; background-color: #d9e0e7; padding: 6px; margin: 4px; border: 1px solid #8da1b4; border-radius: 5px; line-height: 60%"><p style="margin-bottom: 0px"/><p style="margin-bottom: 0px">Profil: <a href="StructureDefinition-tddui-practitioner.html">TDDUI Practitioner</a></p></div><p><b>identifier</b>: <code>urn:oid:1.2.250.1.71.4.2.1</code>/10103441234</p><p><b>name</b>: Claire Martin </p><blockquote><p><b>qualification</b></p><p><b>code</b>: <span title="Codes:">DE Infirmier</span></p></blockquote><blockquote><p><b>qualification</b></p><p><b>code</b>: <span title="Codes:">Infirmier</span></p></blockquote></div>
        </text>
        <identifier>
          <system value="urn:oid:1.2.250.1.71.4.2.1"/>
          <value value="10103441234"/>
        </identifier>
        <name>
          <family value="Martin"/>
          <given value="Claire"/>
          <prefix value="MME"/>
        </name>
        <qualification>
          <code>
            <coding>
              <code value="DE09"/>
              <display value="DE Infirmier"/>
            </coding>
          </code>
        </qualification>
        <qualification>
          <code>
            <coding>
              <code value="60"/>
              <display value="Infirmier"/>
            </coding>
          </code>
        </qualification>
      </Practitioner>
    </resource>
    <request>
      <method value="POST"/>
      <url value="TDDUIPractitioner"/>
    </request>
  </entry>
  <entry>
    <fullUrl value="https://test-server.fr/PractitionerRole/tddui-practitioner-role-example"/>
    <resource>
      <PractitionerRole>
        <id value="tddui-practitioner-role-example"/>
        <meta>
          <profile value="https://interop.esante.gouv.fr/ig/fhir/tddui/StructureDefinition/tddui-practitioner-role"/>
        </meta>
        <text>
          <status value="generated"/><div xmlns="http://www.w3.org/1999/xhtml"><a name="PractitionerRole_tddui-practitioner-role-example"> </a><p class="res-header-id"><b>Narratif généré : PractitionerRole tddui-practitioner-role-example</b></p><a name="tddui-practitioner-role-example"> </a><a name="hctddui-practitioner-role-example"> </a><div style="display: inline-block; background-color: #d9e0e7; padding: 6px; margin: 4px; border: 1px solid #8da1b4; border-radius: 5px; line-height: 60%"><p style="margin-bottom: 0px"/><p style="margin-bottom: 0px">Profil: <a href="StructureDefinition-tddui-practitioner-role.html">TDDUI Practitioner Role</a></p></div><p><b>practitioner</b>: <a href="Practitioner-tddui-practitioner-example.html">Practitioner Claire Martin </a></p><p><b>organization</b>: <a href="Organization-tddui-organization-example.html">Organization Les Chênes Verts</a></p><p><b>code</b>: <span title="Codes:{https://mos.esante.gouv.fr/NOS/TRE_R85-RolePriseCharge/FHIR/TRE-R85-RolePriseCharge 330}">Coordonnateur de parcours</span></p></div>
        </text>
        <practitioner>
          <reference value="Practitioner/tddui-practitioner-example"/>
        </practitioner>
        <organization>
          <reference value="Organization/tddui-organization-example"/>
        </organization>
        <code>
          <extension url="https://interop.esante.gouv.fr/ig/fhir/tddui/StructureDefinition/tddui-profession">
            <valueCodeableConcept>
              <coding>
                <system value="https://mos.esante.gouv.fr/NOS/TRE_A02-ProfessionSavFaire-CISIS/FHIR/TRE-A02-ProfessionSavFaire-CISIS"/>
                <code value="G15_60"/>
                <display value="Infirmier"/>
              </coding>
            </valueCodeableConcept>
          </extension>
          <coding>
            <system value="https://mos.esante.gouv.fr/NOS/TRE_R85-RolePriseCharge/FHIR/TRE-R85-RolePriseCharge"/>
            <code value="330"/>
            <display value="Coordonnateur de parcours"/>
          </coding>
        </code>
      </PractitionerRole>
    </resource>
    <request>
      <method value="POST"/>
      <url value="TDDUIPractitionerRole"/>
    </request>
  </entry>
  <entry>
    <fullUrl value="https://test-server.fr/Task/tddui-task-transport-professionel-example"/>
    <resource>
      <Task>
        <id value="tddui-task-transport-professionel-example"/>
        <meta>
          <profile value="https://interop.esante.gouv.fr/ig/fhir/tddui/StructureDefinition/tddui-task-transport-professionnel"/>
        </meta>
        <text>
          <status value="generated"/><div xmlns="http://www.w3.org/1999/xhtml"><a name="Task_tddui-task-transport-professionel-example"> </a><p class="res-header-id"><b>Narratif généré : Task tddui-task-transport-professionel-example</b></p><a name="tddui-task-transport-professionel-example"> </a><a name="hctddui-task-transport-professionel-example"> </a><div style="display: inline-block; background-color: #d9e0e7; padding: 6px; margin: 4px; border: 1px solid #8da1b4; border-radius: 5px; line-height: 60%"><p style="margin-bottom: 0px"/><p style="margin-bottom: 0px">Profil: <a href="StructureDefinition-tddui-task-transport-professionnel.html">Transport Professionnel</a></p></div><p><b>identifier</b>: 3480787529/147720425367411-TPPro-154674</p><p><b>status</b>: Completed</p><p><b>intent</b>: plan</p><p><b>code</b>: <span title="Codes:">Véhicule individuel</span></p><p><b>for</b>: <a href="Practitioner-tddui-practitioner-example.html">Practitioner Claire Martin </a></p><p><b>encounter</b>: <a href="Encounter-tddui-encounter-evenement-example.html">Encounter : extension = ,Observations cliniques : ; Recommandations pour les jours à venir : ; Prochaine visite : 15 avril 2023, 10h30 ; Remarque : Monsieur Dupont a compris les consignes pour la gestion de sa douleur et la mobilisation de sa hanche opérée.,Cet évènement a débuté plus tard l’usager était sous la douche à l’heure du début du rendez-vous.,Visite à domicile pour soins infirmier.,Suivi post-opératoire suite à intervention chirurgicale de la hanche.; identifier = Visit Number; status = finished; class = home health (ActCode#HH); type = Intervention d'un infirmer salarié,; period = 2023-04-14 10:30:00+0200 --&gt; 2023-04-14 11:15:00+0200</a></p><p><b>executionPeriod</b>: 2023-04-14 10:30:00+0200 --&gt; 2023-04-14 11:15:00+0200</p><p><b>owner</b>: <a href="Organization-tddui-organization-example.html">Organization Les Chênes Verts</a></p><blockquote><p><b>input</b></p><p><b>type</b>: <span title="Codes:{https://interop.esante.gouv.fr/ig/fhir/tddui/CodeSystem/input-tddui-task-transport-codesystem typeMotorisation}">Type de motorisation associée au véhicule utilisé lors du transport.</span></p><p><b>value</b>: <span title="Codes:{https://smt.esante.gouv.fr/fhir/CodeSystem/terminologie-cisis GEN-355}">Véhicule électrique</span></p></blockquote><blockquote><p><b>input</b></p><p><b>type</b>: <span title="Codes:{https://interop.esante.gouv.fr/ig/fhir/tddui/CodeSystem/input-tddui-task-transport-codesystem budgetPrevisionnel}">Budget prévisionnel pour assurer le transport de la personne physique.</span></p><p><b>value</b>: <span title="Euro">€2,00</span> (EUR)</p></blockquote><blockquote><p><b>input</b></p><p><b>type</b>: <span title="Codes:{https://interop.esante.gouv.fr/ig/fhir/tddui/CodeSystem/input-tddui-task-transport-codesystem budgetReel}">Budget réel pour assurer le transport de la personne physique.</span></p><p><b>value</b>: <span title="Euro">€2,00</span> (EUR)</p></blockquote><blockquote><p><b>input</b></p><p><b>type</b>: <span title="Codes:{https://interop.esante.gouv.fr/ig/fhir/tddui/CodeSystem/input-tddui-task-transport-codesystem distance}">Distance du transport de la personne physique.</span></p><p><b>value</b>: No display for Distance  (value : 4; unit : kilometers; system : http://unitsofmeasure.org; code : km)</p></blockquote><blockquote><p><b>input</b></p><p><b>type</b>: <span title="Codes:{https://interop.esante.gouv.fr/ig/fhir/tddui/CodeSystem/input-tddui-task-transport-codesystem dureeTheorique}">Durée théorique du transport de la personne physique.</span></p><p><b>value</b>: No display for Duration  (value : 10; unit : minutes; system : http://unitsofmeasure.org; code : min)</p></blockquote></div>
        </text>
        <identifier>
          <value value="3480787529/147720425367411-TPPro-154674"/>
        </identifier>
        <status value="completed"/>
        <intent value="plan"/>
        <code>
          <coding>
            <code value="ORG-202"/>
            <display value="Véhicule individuel"/>
          </coding>
        </code>
        <for>
          <reference value="Practitioner/tddui-practitioner-example"/>
        </for>
        <encounter>
          <reference value="Encounter/tddui-encounter-evenement-example"/>
        </encounter>
        <executionPeriod>
          <start value="2023-04-14T10:30:00+02:00"/>
          <end value="2023-04-14T11:15:00+02:00"/>
        </executionPeriod>
        <owner>
          <reference value="Organization/tddui-organization-example"/>
        </owner>
        <input>
          <type>
            <coding>
              <system value="https://interop.esante.gouv.fr/ig/fhir/tddui/CodeSystem/input-tddui-task-transport-codesystem"/>
              <code value="typeMotorisation"/>
            </coding>
          </type>
          <valueCodeableConcept>
            <coding>
              <system value="https://smt.esante.gouv.fr/fhir/CodeSystem/terminologie-cisis"/>
              <code value="GEN-355"/>
              <display value="Véhicule électrique"/>
            </coding>
          </valueCodeableConcept>
        </input>
        <input>
          <type>
            <coding>
              <system value="https://interop.esante.gouv.fr/ig/fhir/tddui/CodeSystem/input-tddui-task-transport-codesystem"/>
              <code value="budgetPrevisionnel"/>
            </coding>
          </type>
          <valueMoney>
            <value value="2"/>
            <currency value="EUR"/>
          </valueMoney>
        </input>
        <input>
          <type>
            <coding>
              <system value="https://interop.esante.gouv.fr/ig/fhir/tddui/CodeSystem/input-tddui-task-transport-codesystem"/>
              <code value="budgetReel"/>
            </coding>
          </type>
          <valueMoney>
            <value value="2"/>
            <currency value="EUR"/>
          </valueMoney>
        </input>
        <input>
          <type>
            <coding>
              <system value="https://interop.esante.gouv.fr/ig/fhir/tddui/CodeSystem/input-tddui-task-transport-codesystem"/>
              <code value="distance"/>
            </coding>
          </type>
          <valueDistance>
            <value value="4"/>
            <unit value="kilometers"/>
            <system value="http://unitsofmeasure.org"/>
            <code value="km"/>
          </valueDistance>
        </input>
        <input>
          <type>
            <coding>
              <system value="https://interop.esante.gouv.fr/ig/fhir/tddui/CodeSystem/input-tddui-task-transport-codesystem"/>
              <code value="dureeTheorique"/>
            </coding>
          </type>
          <valueDuration>
            <value value="10"/>
            <unit value="minutes"/>
            <system value="http://unitsofmeasure.org"/>
            <code value="min"/>
          </valueDuration>
        </input>
      </Task>
    </resource>
    <request>
      <method value="POST"/>
      <url value="TDDUITaskTransportProfessionnel"/>
    </request>
  </entry>
  <entry>
    <fullUrl value="https://test-server.fr/Task/tddui-task-transport-usager-example"/>
    <resource>
      <Task>
        <id value="tddui-task-transport-usager-example"/>
        <meta>
          <profile value="https://interop.esante.gouv.fr/ig/fhir/tddui/StructureDefinition/tddui-task-transport-usager"/>
        </meta>
        <text>
          <status value="generated"/><div xmlns="http://www.w3.org/1999/xhtml"><a name="Task_tddui-task-transport-usager-example"> </a><p class="res-header-id"><b>Narratif généré : Task tddui-task-transport-usager-example</b></p><a name="tddui-task-transport-usager-example"> </a><a name="hctddui-task-transport-usager-example"> </a><div style="display: inline-block; background-color: #d9e0e7; padding: 6px; margin: 4px; border: 1px solid #8da1b4; border-radius: 5px; line-height: 60%"><p style="margin-bottom: 0px"/><p style="margin-bottom: 0px">Profil: <a href="StructureDefinition-tddui-task-transport-usager.html">Transport Usager</a></p></div><p><b>identifier</b>: 3480787529/147720425367411-TPU-154675</p><p><b>status</b>: Completed</p><p><b>intent</b>: plan</p><p><b>code</b>: <span title="Codes:">Taxi</span></p><p><b>encounter</b>: <a href="Encounter-tddui-encounter-evenement-example.html">Encounter : extension = ,Observations cliniques : ; Recommandations pour les jours à venir : ; Prochaine visite : 15 avril 2023, 10h30 ; Remarque : Monsieur Dupont a compris les consignes pour la gestion de sa douleur et la mobilisation de sa hanche opérée.,Cet évènement a débuté plus tard l’usager était sous la douche à l’heure du début du rendez-vous.,Visite à domicile pour soins infirmier.,Suivi post-opératoire suite à intervention chirurgicale de la hanche.; identifier = Visit Number; status = finished; class = home health (ActCode#HH); type = Intervention d'un infirmer salarié,; period = 2023-04-14 10:30:00+0200 --&gt; 2023-04-14 11:15:00+0200</a></p><p><b>executionPeriod</b>: 2023-04-14 10:30:00+0200 --&gt; 2023-04-14 11:15:00+0200</p><blockquote><p><b>input</b></p><p><b>type</b>: <span title="Codes:{https://interop.esante.gouv.fr/ig/fhir/tddui/CodeSystem/input-tddui-task-transport-codesystem budgetPrevisionnel}">Budget prévisionnel pour assurer le transport de la personne physique.</span></p><p><b>value</b>: <span title="Euro">€2,00</span> (EUR)</p></blockquote><blockquote><p><b>input</b></p><p><b>type</b>: <span title="Codes:{https://interop.esante.gouv.fr/ig/fhir/tddui/CodeSystem/input-tddui-task-transport-codesystem budgetReel}">Budget réel pour assurer le transport de la personne physique.</span></p><p><b>value</b>: <span title="Euro">€2,00</span> (EUR)</p></blockquote><blockquote><p><b>input</b></p><p><b>type</b>: <span title="Codes:{https://interop.esante.gouv.fr/ig/fhir/tddui/CodeSystem/input-tddui-task-transport-codesystem distance}">Distance du transport de la personne physique.</span></p><p><b>value</b>: No display for Distance  (value : 4; unit : kilometers; system : http://unitsofmeasure.org; code : km)</p></blockquote><blockquote><p><b>input</b></p><p><b>type</b>: <span title="Codes:{https://interop.esante.gouv.fr/ig/fhir/tddui/CodeSystem/input-tddui-task-transport-codesystem dureeTheorique}">Durée théorique du transport de la personne physique.</span></p><p><b>value</b>: No display for Duration  (value : 10; unit : minutes; system : http://unitsofmeasure.org; code : min)</p></blockquote><blockquote><p><b>input</b></p><p><b>type</b>: <span title="Codes:{https://interop.esante.gouv.fr/ig/fhir/tddui/CodeSystem/input-tddui-task-transport-codesystem accompagnement}">Accompagnement nécessaire ou non de l'usager. </span></p><p><b>value</b>: true</p></blockquote><blockquote><p><b>input</b></p><p><b>type</b>: <span title="Codes:{https://interop.esante.gouv.fr/ig/fhir/tddui/CodeSystem/input-tddui-task-transport-codesystem asepsie}">Lors du transport de l'usager l'asepsie est rigoureusement respectée ou n'est pas nécessaire.</span></p><p><b>value</b>: false</p></blockquote><blockquote><p><b>input</b></p><p><b>type</b>: <span title="Codes:{https://interop.esante.gouv.fr/ig/fhir/tddui/CodeSystem/input-tddui-task-transport-codesystem natureTransport}">Nature du transport de l'usager.</span></p><p><b>value</b>: <span title="Codes:">Transports liés au projet individuel</span></p></blockquote></div>
        </text>
        <identifier>
          <value value="3480787529/147720425367411-TPU-154675"/>
        </identifier>
        <status value="completed"/>
        <intent value="plan"/>
        <code>
          <coding>
            <code value="ORG-156"/>
            <display value="Taxi"/>
          </coding>
        </code>
        <encounter>
          <reference value="Encounter/tddui-encounter-evenement-example"/>
        </encounter>
        <executionPeriod>
          <start value="2023-04-14T10:30:00+02:00"/>
          <end value="2023-04-14T11:15:00+02:00"/>
        </executionPeriod>
        <input>
          <type>
            <coding>
              <system value="https://interop.esante.gouv.fr/ig/fhir/tddui/CodeSystem/input-tddui-task-transport-codesystem"/>
              <code value="budgetPrevisionnel"/>
            </coding>
          </type>
          <valueMoney>
            <value value="2"/>
            <currency value="EUR"/>
          </valueMoney>
        </input>
        <input>
          <type>
            <coding>
              <system value="https://interop.esante.gouv.fr/ig/fhir/tddui/CodeSystem/input-tddui-task-transport-codesystem"/>
              <code value="budgetReel"/>
            </coding>
          </type>
          <valueMoney>
            <value value="2"/>
            <currency value="EUR"/>
          </valueMoney>
        </input>
        <input>
          <type>
            <coding>
              <system value="https://interop.esante.gouv.fr/ig/fhir/tddui/CodeSystem/input-tddui-task-transport-codesystem"/>
              <code value="distance"/>
            </coding>
          </type>
          <valueDistance>
            <value value="4"/>
            <unit value="kilometers"/>
            <system value="http://unitsofmeasure.org"/>
            <code value="km"/>
          </valueDistance>
        </input>
        <input>
          <type>
            <coding>
              <system value="https://interop.esante.gouv.fr/ig/fhir/tddui/CodeSystem/input-tddui-task-transport-codesystem"/>
              <code value="dureeTheorique"/>
            </coding>
          </type>
          <valueDuration>
            <value value="10"/>
            <unit value="minutes"/>
            <system value="http://unitsofmeasure.org"/>
            <code value="min"/>
          </valueDuration>
        </input>
        <input>
          <type>
            <coding>
              <system value="https://interop.esante.gouv.fr/ig/fhir/tddui/CodeSystem/input-tddui-task-transport-codesystem"/>
              <code value="accompagnement"/>
            </coding>
          </type>
          <valueBoolean value="true"/>
        </input>
        <input>
          <type>
            <coding>
              <system value="https://interop.esante.gouv.fr/ig/fhir/tddui/CodeSystem/input-tddui-task-transport-codesystem"/>
              <code value="asepsie"/>
            </coding>
          </type>
          <valueBoolean value="false"/>
        </input>
        <input>
          <type>
            <coding>
              <system value="https://interop.esante.gouv.fr/ig/fhir/tddui/CodeSystem/input-tddui-task-transport-codesystem"/>
              <code value="natureTransport"/>
            </coding>
          </type>
          <valueCodeableConcept>
            <coding>
              <code value="3.2.4"/>
              <display value="Transports liés au projet individuel"/>
            </coding>
          </valueCodeableConcept>
        </input>
      </Task>
    </resource>
    <request>
      <method value="POST"/>
      <url value="TDDUITaskTransportUsager"/>
    </request>
  </entry>
</Bundle>